#HEIGHT=   844
#WIDTH =  1117
#TIME  =  0.000000
#          #
#   1 X_IMAGE         Object position along x                         [pixel]
#   2 Y_IMAGE         Object position along y                         [pixel]
#   3 MAG_APER        Fixed aperture magnitude vector                 [mag]
#   4 FWHM_IMAGE      FWHM assuming a gaussian core                   [pixel]
#   5 FLAGS           Extraction flags
#   6 CLASS_STAR      S/G classifier output
#   7 ELONGATION      A_IMAGE/B_IMAGE
#   8 ELLIPTICITY     1 - B_IMAGE/A_IMAGE
#   9 A_IMAGE         Profile RMS along major axis                    [pixel]
#  10 B_IMAGE         Profile RMS along minor axis                    [pixel]
#  11 THETA_IMAGE     Position angle (CCW/x)                          [deg]
   111.579     28.495   0.4539     5.26 000  0.00    1.147    0.128     1.45     1.26  70.1
  1073.911    822.606   0.9672     5.29 000  0.00    1.388    0.279     1.05     0.76  73.8
   175.853    817.807   0.4015     4.76 000  0.00    1.143    0.125     1.39     1.21   2.3
  1036.773    802.084  -3.3697     5.08 000  0.04    1.064    0.060     2.54     2.39 -40.3
  1115.724    798.124   0.4947     5.92 024  0.00    1.753    0.429     1.60     0.91  85.5
   538.954    797.226  -0.8487     5.19 000  0.00    1.042    0.040     1.90     1.82   5.0
   958.494    786.683  -1.5982     5.00 000  0.08    1.046    0.044     2.15     2.06  -7.5
   238.407    782.615   0.9569     5.62 000  0.00    1.230    0.187     1.15     0.93   9.4
   936.713    754.393  -0.7183     5.30 000  0.00    1.055    0.052     1.92     1.82  38.2
   980.406    752.209   0.9641     5.78 000  0.00    1.195    0.163     1.06     0.89 -89.6
  1114.562    667.914  -0.2253    10.82 008  0.00    1.509    0.337     2.22     1.47  81.0
   901.482    657.943   0.8244     5.06 000  0.00    1.381    0.276     1.08     0.78  -1.6
   596.197    646.752   0.6813     7.12 000  0.00    1.611    0.379     1.51     0.94  -1.7
   272.382    644.034   0.9223     5.68 000  0.00    1.283    0.221     1.08     0.84 -33.8
   684.268    632.084   0.9003     6.06 000  0.00    1.494    0.331     1.24     0.83  82.5
   690.554    626.786   0.9105     5.19 000  0.00    1.275    0.216     1.16     0.91 -34.8
   604.075    620.313  -1.5776     5.16 000  0.03    1.170    0.146     2.34     2.00 -21.0
   550.235    558.632   1.0364    79.23 000  0.00    2.923    0.658    22.56     7.72 -74.6
   869.235    603.525  -0.0923     5.48 000  0.00    1.031    0.030     1.65     1.60 -38.9
   556.865    603.542   0.5800     8.28 000  0.00    1.911    0.477     1.91     1.00 -10.0
  1055.012    601.744   0.5782     5.04 000  0.00    1.069    0.064     1.27     1.19 -56.0
    33.592    602.830   0.8941     4.04 000  0.00    1.289    0.224     1.06     0.82  34.1
  1080.911    595.254  -2.2982     4.94 000  0.04    1.057    0.054     2.36     2.23 -34.6
   242.420    598.942   0.1338     7.30 000  0.00    1.454    0.312     1.87     1.29   0.4
   779.855    598.244   0.5307     5.35 000  0.00    1.262    0.208     1.37     1.09  -6.7
  1093.000    595.550   0.6675     5.43 000  0.00    1.204    0.169     1.15     0.96   0.9
    72.184    589.725   0.0854     6.10 000  0.00    1.149    0.130     1.72     1.49 -49.0
   171.657    578.100   0.9095     5.32 000  0.00    1.416    0.294     1.06     0.75 -15.7
   488.070    574.123  -0.7023     8.79 000  0.00    1.176    0.150     2.11     1.79  18.2
   167.920    564.401   0.9527     5.27 000  0.00    1.402    0.287     1.05     0.75 -74.9
   329.856    522.491   0.9020     5.71 000  0.00    1.123    0.110     1.02     0.90  -6.0
    41.528    519.901  -0.5200     5.54 000  0.00    1.054    0.052     1.88     1.78   6.8
   612.442    516.561   1.0311     7.09 000  0.00    1.484    0.326     1.45     0.97  51.1
   606.958    510.495   0.5888     8.67 000  1.00    1.703    0.413     1.89     1.11 -39.1
   561.444    386.744  -2.6938    88.51 002  0.00    1.859    0.462    23.20    12.48  -9.3
   556.127    474.551  -3.6612    34.35 002  0.77    2.403    0.584    10.67     4.44 -83.0
   573.146    437.101  -3.9260   109.69 006  0.03    2.053    0.513    29.52    14.38  -2.8
   521.590    430.523  -3.5517    31.46 002  0.82    5.717    0.825    12.53     2.19   7.4
   484.788    494.695   1.0226     6.70 002  0.00    2.276    0.561     1.69     0.74 -42.1
   483.200    503.888   0.3134     5.18 002  0.00    1.123    0.110     1.50     1.33  75.1
   480.280    499.017   0.9019     6.13 002  0.00    1.116    0.104     1.09     0.97 -56.8
   474.864    502.047   1.0142     5.88 000  0.00    1.737    0.424     1.30     0.75  89.8
   282.772    501.348   0.7143     6.07 000  0.00    1.276    0.216     1.15     0.90  53.2
   870.806    491.885  -0.4586     5.39 000  0.00    1.105    0.095     1.87     1.69  59.6
   489.312    490.345   1.0693     5.61 000  0.00    1.964    0.491     1.32     0.67 -29.3
   500.665    481.678   1.2821     3.62 002  0.00    2.506    0.601     0.97     0.39 -44.9
   495.507    486.489   0.8454     6.96 002  0.00    1.866    0.464     1.59     0.85 -46.7
   498.325    485.320   1.0424     3.24 002  0.00    1.104    0.094     0.89     0.80  30.4
   637.507    485.479   1.1902     2.84 002  0.00    1.770    0.435     0.80     0.45  71.2
   637.013    482.000   1.0292     5.45 002  0.00    1.871    0.466     1.25     0.67  -8.7
   633.608    480.804   1.0570     5.80 002  0.00    2.048    0.512     1.39     0.68  70.4
   914.766    477.544  -1.4318     5.14 000  0.02    1.067    0.063     2.20     2.06 -29.2
   759.033    466.334   0.9095     5.98 000  0.00    2.034    0.508     1.43     0.70  88.9
   799.024    463.004  -2.0058     0.00 004  1.00    1.054    0.051     0.74     0.71   8.4
  1062.099    456.899  -0.4256     5.78 000  0.00    1.041    0.039     1.84     1.77   1.9
   758.838    457.997   1.0893     6.66 000  0.00    4.164    0.760     2.28     0.55  20.4
   677.721    440.967   0.7260    79.60 000  0.00    1.942    0.485    18.48     9.51  26.1
  1003.484    426.585   0.6748     7.16 000  0.00    1.328    0.247     1.38     1.04  29.6
   359.925    412.417   0.8827     8.87 002  0.00    2.931    0.659     2.54     0.87  13.8
   372.593    413.181   0.8507     6.18 002  0.00    1.247    0.198     1.16     0.93 -27.8
   367.214    412.492   0.9898    13.86 002  0.00    8.212    0.878     6.63     0.81   3.7
   440.104    397.387   0.8169     4.71 000  0.00    1.270    0.212     1.17     0.92 -60.9
   636.616    392.006   0.1952     6.91 000  0.00    1.224    0.183     1.84     1.50 -66.6
   625.507    384.703   0.9140     7.30 002  0.00    1.994    0.498     1.73     0.87 -45.4
   633.436    378.137   0.6672    14.27 002  0.00    2.871    0.652     4.03     1.40 -41.1
   892.229    368.141   0.9687     5.14 000  0.00    1.282    0.220     0.98     0.76  26.4
   491.983    350.922   0.7216     8.40 000  0.00    1.371    0.270     1.64     1.20   8.8
   575.205    308.878  -0.2880    28.16 002  0.00    7.720    0.870    13.04     1.69 -82.5
   576.660    294.777  -0.2693    32.94 002  0.00    6.702    0.851    14.21     2.12 -83.3
   784.953    335.268  -1.7093     5.18 000  0.03    1.060    0.056     2.30     2.17 -53.6
  1088.969    337.033   0.2905     5.45 000  0.00    1.181    0.153     1.43     1.21 -80.0
  1108.143    318.702  -0.7338     5.57 000  0.00    1.137    0.120     2.00     1.76 -35.2
   741.779    307.059   0.5306     7.36 000  0.00    1.310    0.237     1.41     1.08  57.1
   248.361    303.801  -0.2041     5.88 000  0.00    1.156    0.135     1.83     1.58 -23.0
   112.225    287.510   0.2254     5.72 000  0.00    1.126    0.112     1.58     1.40 -71.5
    12.076    283.430   0.1153     5.44 000  0.00    1.172    0.147     1.66     1.42 -36.5
   567.007    247.949  -1.3483     5.23 000  0.00    1.021    0.020     2.17     2.13 -13.5
   589.294    235.637  -0.9311     6.30 000  0.00    1.103    0.094     2.20     1.99   8.7
   734.831    211.747   0.4827     7.08 000  0.00    1.086    0.079     1.41     1.30  16.9
   643.470    205.893  -0.8222     5.26 000  0.00    1.123    0.110     2.01     1.79  77.9
    26.616    197.268  -0.3893     5.37 000  0.00    1.146    0.127     1.85     1.61  23.4
   872.387    196.923   0.5961     5.01 000  0.00    1.180    0.152     1.32     1.12  78.9
    77.766    195.590   0.2579     5.70 000  0.00    1.020    0.020     1.41     1.38 -25.9
   714.142    188.925  -1.2435     4.74 000  0.01    1.016    0.016     1.96     1.93  19.4
   589.317    187.939   1.0098     6.18 000  0.00    1.895    0.472     1.43     0.75 -81.7
   802.250    158.213  -1.6121     5.05 000  0.04    1.038    0.037     2.24     2.16  40.5
  1037.437    148.667   0.4175     6.13 000  0.00    1.071    0.067     1.48     1.38 -37.3
   432.091    138.195   0.0496     5.12 000  0.00    1.221    0.181     1.70     1.39 -48.2
   351.777    138.946   1.0147     0.00 002  1.00    1.072    0.067     0.69     0.64  73.6
   347.131    137.945   0.7800     7.22 002  0.00    2.603    0.616     1.95     0.75   0.6
   407.364    126.089   0.1761     5.69 000  0.00    1.175    0.149     1.65     1.40  58.8
   360.583    115.102   0.3463     5.08 000  0.00    1.258    0.205     1.51     1.20  12.5
   268.106     82.282  -1.4493     5.26 000  0.02    1.096    0.088     2.21     2.02  -1.0
  1079.257     80.527   1.1470     7.15 000  0.01    2.239    0.553     1.79     0.80 -53.6
   343.500     40.987  -0.1052     6.33 000  0.00    1.066    0.062     1.79     1.68   9.6
